#
# Results on Thursday April 01 2021 17:44:03 UTC.
# USER AGENT: Mozilla/5.0 (Macintosh; Intel Mac OS X 10_15_7) AppleWebKit/537.36 (KHTML, like Gecko) Chrome/89.0.4389.82 Safari/537.36
# Design number was non-random = 0
#
# Columns below this comment are as follows:
# 1. Time results were received.
# 2. MD5 hash of participant's IP address.
# 3. Controller name.
# 4. Item number.
# 5. Element number.
# 6. Type.
# 7. Group.
# 8. Word number.
# 9. Word.
# 10. Reading time.
# 11. KeyCode.
# 12. Newline?
# 13. Sentence (or sentence MD5).
1617299044,e8240850cbd58506cfa6a481217ab205,OnlineJudgment,10,0,words,NULL,1,GO,579,S,False,GO
1617299044,e8240850cbd58506cfa6a481217ab205,OnlineJudgment,2,0,words,NULL,1,CAT,720,S,False,CAT
1617299044,e8240850cbd58506cfa6a481217ab205,OnlineJudgment,3,0,words,NULL,1,MOTION,582,S,False,MOTION
1617299044,e8240850cbd58506cfa6a481217ab205,OnlineJudgment,7,0,words,NULL,1,LINGUISTICS,763,S,False,LINGUISTICS
1617299044,e8240850cbd58506cfa6a481217ab205,OnlineJudgment,12,0,words,NULL,1,PHONETICS,605,S,False,PHONETICS
1617299044,e8240850cbd58506cfa6a481217ab205,OnlineJudgment,11,0,words,NULL,1,SEE,750,S,False,SEE
1617299044,e8240850cbd58506cfa6a481217ab205,OnlineJudgment,4,0,words,NULL,1,TWINE,792,S,False,TWINE
1617299044,e8240850cbd58506cfa6a481217ab205,OnlineJudgment,13,0,words,NULL,1,GAUCHO,557,S,False,GAUCHO
1617299044,e8240850cbd58506cfa6a481217ab205,OnlineJudgment,6,0,words,NULL,1,RADIO,587,S,False,RADIO
1617299044,e8240850cbd58506cfa6a481217ab205,OnlineJudgment,8,0,words,NULL,1,INEBRIATED,1187,S,False,INEBRIATED
1617299044,e8240850cbd58506cfa6a481217ab205,OnlineJudgment,9,0,words,NULL,1,LOOK,507,S,False,LOOK
1617299044,e8240850cbd58506cfa6a481217ab205,OnlineJudgment,5,0,words,NULL,1,KHAKI,426,S,False,KHAKI
#
# Results on Thursday April 01 2021 17:51:06 UTC.
# USER AGENT: Mozilla/5.0 (Macintosh; Intel Mac OS X 10_15_7) AppleWebKit/537.36 (KHTML, like Gecko) Chrome/89.0.4389.82 Safari/537.36
# Design number was non-random = 1
#
# Columns below this comment are as follows:
# 1. Time results were received.
# 2. MD5 hash of participant's IP address.
# 3. Controller name.
# 4. Item number.
# 5. Element number.
# 6. Type.
# 7. Group.
# 8. Word number.
# 9. Word.
# 10. Reading time.
# 11. KeyCode.
# 12. Newline?
# 13. Sentence (or sentence MD5).
1617299466,e8240850cbd58506cfa6a481217ab205,OnlineJudgment,2,0,practice,NULL,1,NOW,1931,S,False,NOW
1617299466,e8240850cbd58506cfa6a481217ab205,OnlineJudgment,3,0,practice,NULL,1,XUSIO,759,K,False,XUSIO
1617299466,e8240850cbd58506cfa6a481217ab205,OnlineJudgment,4,0,practice,NULL,1,EXAM,489,S,False,EXAM
1617299466,e8240850cbd58506cfa6a481217ab205,OnlineJudgment,6,0,wordsYES,NULL,1,MOTION,601,S,False,MOTION
1617299466,e8240850cbd58506cfa6a481217ab205,OnlineJudgment,21,0,wordsNO,NULL,1,QZXIBAR,663,K,False,QZXIBAR
1617299466,e8240850cbd58506cfa6a481217ab205,OnlineJudgment,23,0,wordsNO,NULL,1,IMPERSCIDIOUS,974,K,False,IMPERSCIDIOUS
1617299466,e8240850cbd58506cfa6a481217ab205,OnlineJudgment,27,0,wordsNO,NULL,1,QQZEI,625,K,False,QQZEI
1617299466,e8240850cbd58506cfa6a481217ab205,OnlineJudgment,15,0,wordsYES,NULL,1,PHONETICS,599,S,False,PHONETICS
1617299466,e8240850cbd58506cfa6a481217ab205,OnlineJudgment,8,0,wordsYES,NULL,1,KHAKI,1463,S,False,KHAKI
1617299466,e8240850cbd58506cfa6a481217ab205,OnlineJudgment,14,0,wordsYES,NULL,1,SEE,945,S,False,SEE
1617299466,e8240850cbd58506cfa6a481217ab205,OnlineJudgment,19,0,wordsNO,NULL,1,XXIS,1032,S,False,XXIS
1617299466,e8240850cbd58506cfa6a481217ab205,OnlineJudgment,18,0,wordsNO,NULL,1,EIUOXIE,699,K,False,EIUOXIE
1617299466,e8240850cbd58506cfa6a481217ab205,OnlineJudgment,17,0,wordsNO,NULL,1,ENCYLOPERIO,839,K,False,ENCYLOPERIO
1617299466,e8240850cbd58506cfa6a481217ab205,OnlineJudgment,7,0,wordsYES,NULL,1,TWINE,2263,S,False,TWINE
1617299466,e8240850cbd58506cfa6a481217ab205,OnlineJudgment,20,0,wordsNO,NULL,1,FLOPRO,579,K,False,FLOPRO
1617299466,e8240850cbd58506cfa6a481217ab205,OnlineJudgment,10,0,wordsYES,NULL,1,LINGUISTICS,612,S,False,LINGUISTICS
1617299466,e8240850cbd58506cfa6a481217ab205,OnlineJudgment,9,0,wordsYES,NULL,1,RADIO,1031,K,False,RADIO
1617299466,e8240850cbd58506cfa6a481217ab205,OnlineJudgment,24,0,wordsNO,NULL,1,WORDLOOK,1186,K,False,WORDLOOK
1617299466,e8240850cbd58506cfa6a481217ab205,OnlineJudgment,13,0,wordsYES,NULL,1,GO,723,S,False,GO
1617299466,e8240850cbd58506cfa6a481217ab205,OnlineJudgment,26,0,wordsNO,NULL,1,ALLOP,788,K,False,ALLOP
1617299466,e8240850cbd58506cfa6a481217ab205,OnlineJudgment,22,0,wordsNO,NULL,1,MISUNDERFLORMENT,1835,K,False,MISUNDERFLORMENT
1617299466,e8240850cbd58506cfa6a481217ab205,OnlineJudgment,28,0,wordsNO,NULL,1,BRIPPER,976,K,False,BRIPPER
1617299466,e8240850cbd58506cfa6a481217ab205,OnlineJudgment,5,0,wordsYES,NULL,1,CAT,580,S,False,CAT
1617299466,e8240850cbd58506cfa6a481217ab205,OnlineJudgment,11,0,wordsYES,NULL,1,INEBRIATED,974,S,False,INEBRIATED
1617299466,e8240850cbd58506cfa6a481217ab205,OnlineJudgment,25,0,wordsNO,NULL,1,SPERSHY,823,K,False,SPERSHY
1617299466,e8240850cbd58506cfa6a481217ab205,OnlineJudgment,16,0,wordsYES,NULL,1,GAUCHO,740,S,False,GAUCHO
1617299466,e8240850cbd58506cfa6a481217ab205,OnlineJudgment,12,0,wordsYES,NULL,1,LOOK,1279,S,False,LOOK
#
# Results on Thursday April 01 2021 23:16:31 UTC.
# USER AGENT: Mozilla/5.0 (Macintosh; Intel Mac OS X 11_0_1) AppleWebKit/537.36 (KHTML, like Gecko) Chrome/89.0.4389.114 Safari/537.36
# Design number was non-random = 2
#
# Columns below this comment are as follows:
# 1. Time results were received.
# 2. MD5 hash of participant's IP address.
# 3. Controller name.
# 4. Item number.
# 5. Element number.
# 6. Type.
# 7. Group.
# 8. Word number.
# 9. Word.
# 10. Reading time.
# 11. KeyCode.
# 12. Newline?
# 13. Sentence (or sentence MD5).
1617318992,883a84accc01ae8457b2887a6fc581dc,OnlineJudgment,2,0,practice,NULL,1,NOW,1026,S,False,NOW
1617318992,883a84accc01ae8457b2887a6fc581dc,OnlineJudgment,3,0,practice,NULL,1,XUSIO,378,K,False,XUSIO
1617318992,883a84accc01ae8457b2887a6fc581dc,OnlineJudgment,4,0,practice,NULL,1,EXAM,470,S,False,EXAM
1617318992,883a84accc01ae8457b2887a6fc581dc,OnlineJudgment,5,0,wordsYES,NULL,1,CAT,623,S,False,CAT
1617318992,883a84accc01ae8457b2887a6fc581dc,OnlineJudgment,16,0,wordsYES,NULL,1,GAUCHO,535,S,False,GAUCHO
1617318992,883a84accc01ae8457b2887a6fc581dc,OnlineJudgment,7,0,wordsYES,NULL,1,TWINE,519,S,False,TWINE
1617318992,883a84accc01ae8457b2887a6fc581dc,OnlineJudgment,18,0,wordsNO,NULL,1,EIUOXIE,496,K,False,EIUOXIE
1617318992,883a84accc01ae8457b2887a6fc581dc,OnlineJudgment,13,0,wordsYES,NULL,1,GO,455,S,False,GO
1617318992,883a84accc01ae8457b2887a6fc581dc,OnlineJudgment,6,0,wordsYES,NULL,1,MOTION,382,S,False,MOTION
1617318992,883a84accc01ae8457b2887a6fc581dc,OnlineJudgment,12,0,wordsYES,NULL,1,LOOK,395,S,False,LOOK
1617318992,883a84accc01ae8457b2887a6fc581dc,OnlineJudgment,14,0,wordsYES,NULL,1,SEE,466,S,False,SEE
1617318992,883a84accc01ae8457b2887a6fc581dc,OnlineJudgment,8,0,wordsYES,NULL,1,KHAKI,542,S,False,KHAKI
1617318992,883a84accc01ae8457b2887a6fc581dc,OnlineJudgment,15,0,wordsYES,NULL,1,PHONETICS,469,S,False,PHONETICS
1617318992,883a84accc01ae8457b2887a6fc581dc,OnlineJudgment,24,0,wordsNO,NULL,1,WORDLOOK,551,S,False,WORDLOOK
1617318992,883a84accc01ae8457b2887a6fc581dc,OnlineJudgment,20,0,wordsNO,NULL,1,FLOPRO,669,K,False,FLOPRO
1617318992,883a84accc01ae8457b2887a6fc581dc,OnlineJudgment,11,0,wordsYES,NULL,1,INEBRIATED,648,S,False,INEBRIATED
1617318992,883a84accc01ae8457b2887a6fc581dc,OnlineJudgment,22,0,wordsNO,NULL,1,MISUNDERFLORMENT,1888,K,False,MISUNDERFLORMENT
1617318992,883a84accc01ae8457b2887a6fc581dc,OnlineJudgment,17,0,wordsNO,NULL,1,ENCYLOPERIO,818,K,False,ENCYLOPERIO
1617318992,883a84accc01ae8457b2887a6fc581dc,OnlineJudgment,9,0,wordsYES,NULL,1,RADIO,458,S,False,RADIO
1617318992,883a84accc01ae8457b2887a6fc581dc,OnlineJudgment,19,0,wordsNO,NULL,1,XXIS,457,K,False,XXIS
1617318992,883a84accc01ae8457b2887a6fc581dc,OnlineJudgment,26,0,wordsNO,NULL,1,ALLOP,674,K,False,ALLOP
1617318992,883a84accc01ae8457b2887a6fc581dc,OnlineJudgment,28,0,wordsNO,NULL,1,BRIPPER,655,K,False,BRIPPER
1617318992,883a84accc01ae8457b2887a6fc581dc,OnlineJudgment,23,0,wordsNO,NULL,1,IMPERSCIDIOUS,387,S,False,IMPERSCIDIOUS
1617318992,883a84accc01ae8457b2887a6fc581dc,OnlineJudgment,27,0,wordsNO,NULL,1,QQZEI,513,K,False,QQZEI
1617318992,883a84accc01ae8457b2887a6fc581dc,OnlineJudgment,10,0,wordsYES,NULL,1,LINGUISTICS,485,S,False,LINGUISTICS
1617318992,883a84accc01ae8457b2887a6fc581dc,OnlineJudgment,25,0,wordsNO,NULL,1,SPERSHY,608,K,False,SPERSHY
1617318992,883a84accc01ae8457b2887a6fc581dc,OnlineJudgment,21,0,wordsNO,NULL,1,QZXIBAR,442,K,False,QZXIBAR
#
# Results on Thursday April 01 2021 23:16:46 UTC.
# USER AGENT: Mozilla/5.0 (Macintosh; Intel Mac OS X 10_15_6) AppleWebKit/537.36 (KHTML, like Gecko) Chrome/89.0.4389.114 Safari/537.36
# Design number was non-random = 2
#
# Columns below this comment are as follows:
# 1. Time results were received.
# 2. MD5 hash of participant's IP address.
# 3. Controller name.
# 4. Item number.
# 5. Element number.
# 6. Type.
# 7. Group.
# 8. Word number.
# 9. Word.
# 10. Reading time.
# 11. KeyCode.
# 12. Newline?
# 13. Sentence (or sentence MD5).
1617319006,8e8bd00c87407eaf2bcea22c28683750,OnlineJudgment,2,0,practice,NULL,1,NOW,1416,S,False,NOW
1617319006,8e8bd00c87407eaf2bcea22c28683750,OnlineJudgment,3,0,practice,NULL,1,XUSIO,752,K,False,XUSIO
1617319006,8e8bd00c87407eaf2bcea22c28683750,OnlineJudgment,4,0,practice,NULL,1,EXAM,547,S,False,EXAM
1617319006,8e8bd00c87407eaf2bcea22c28683750,OnlineJudgment,27,0,wordsNO,NULL,1,QQZEI,540,K,False,QQZEI
1617319006,8e8bd00c87407eaf2bcea22c28683750,OnlineJudgment,10,0,wordsYES,NULL,1,LINGUISTICS,813,S,False,LINGUISTICS
1617319006,8e8bd00c87407eaf2bcea22c28683750,OnlineJudgment,19,0,wordsNO,NULL,1,XXIS,541,K,False,XXIS
1617319006,8e8bd00c87407eaf2bcea22c28683750,OnlineJudgment,28,0,wordsNO,NULL,1,BRIPPER,830,K,False,BRIPPER
1617319006,8e8bd00c87407eaf2bcea22c28683750,OnlineJudgment,23,0,wordsNO,NULL,1,IMPERSCIDIOUS,949,K,False,IMPERSCIDIOUS
1617319006,8e8bd00c87407eaf2bcea22c28683750,OnlineJudgment,22,0,wordsNO,NULL,1,MISUNDERFLORMENT,936,K,False,MISUNDERFLORMENT
1617319006,8e8bd00c87407eaf2bcea22c28683750,OnlineJudgment,25,0,wordsNO,NULL,1,SPERSHY,725,K,False,SPERSHY
1617319006,8e8bd00c87407eaf2bcea22c28683750,OnlineJudgment,18,0,wordsNO,NULL,1,EIUOXIE,621,K,False,EIUOXIE
1617319006,8e8bd00c87407eaf2bcea22c28683750,OnlineJudgment,9,0,wordsYES,NULL,1,RADIO,611,S,False,RADIO
1617319006,8e8bd00c87407eaf2bcea22c28683750,OnlineJudgment,17,0,wordsNO,NULL,1,ENCYLOPERIO,714,K,False,ENCYLOPERIO
1617319006,8e8bd00c87407eaf2bcea22c28683750,OnlineJudgment,14,0,wordsYES,NULL,1,SEE,663,S,False,SEE
1617319006,8e8bd00c87407eaf2bcea22c28683750,OnlineJudgment,13,0,wordsYES,NULL,1,GO,642,S,False,GO
1617319006,8e8bd00c87407eaf2bcea22c28683750,OnlineJudgment,11,0,wordsYES,NULL,1,INEBRIATED,723,S,False,INEBRIATED
1617319006,8e8bd00c87407eaf2bcea22c28683750,OnlineJudgment,15,0,wordsYES,NULL,1,PHONETICS,666,S,False,PHONETICS
1617319006,8e8bd00c87407eaf2bcea22c28683750,OnlineJudgment,16,0,wordsYES,NULL,1,GAUCHO,571,S,False,GAUCHO
1617319006,8e8bd00c87407eaf2bcea22c28683750,OnlineJudgment,5,0,wordsYES,NULL,1,CAT,503,S,False,CAT
1617319006,8e8bd00c87407eaf2bcea22c28683750,OnlineJudgment,7,0,wordsYES,NULL,1,TWINE,564,S,False,TWINE
1617319006,8e8bd00c87407eaf2bcea22c28683750,OnlineJudgment,20,0,wordsNO,NULL,1,FLOPRO,618,K,False,FLOPRO
1617319006,8e8bd00c87407eaf2bcea22c28683750,OnlineJudgment,12,0,wordsYES,NULL,1,LOOK,588,S,False,LOOK
1617319006,8e8bd00c87407eaf2bcea22c28683750,OnlineJudgment,26,0,wordsNO,NULL,1,ALLOP,650,K,False,ALLOP
1617319006,8e8bd00c87407eaf2bcea22c28683750,OnlineJudgment,6,0,wordsYES,NULL,1,MOTION,593,S,False,MOTION
1617319006,8e8bd00c87407eaf2bcea22c28683750,OnlineJudgment,24,0,wordsNO,NULL,1,WORDLOOK,1002,K,False,WORDLOOK
1617319006,8e8bd00c87407eaf2bcea22c28683750,OnlineJudgment,21,0,wordsNO,NULL,1,QZXIBAR,715,K,False,QZXIBAR
1617319006,8e8bd00c87407eaf2bcea22c28683750,OnlineJudgment,8,0,wordsYES,NULL,1,KHAKI,701,S,False,KHAKI
#
# Results on Thursday April 01 2021 23:16:46 UTC.
# USER AGENT: Mozilla/5.0 (Macintosh; Intel Mac OS X 10_15_7) AppleWebKit/537.36 (KHTML, like Gecko) Chrome/88.0.4324.192 Safari/537.36
# Design number was non-random = 2
#
# Columns below this comment are as follows:
# 1. Time results were received.
# 2. MD5 hash of participant's IP address.
# 3. Controller name.
# 4. Item number.
# 5. Element number.
# 6. Type.
# 7. Group.
# 8. Word number.
# 9. Word.
# 10. Reading time.
# 11. KeyCode.
# 12. Newline?
# 13. Sentence (or sentence MD5).
1617319007,73cb080831e5619e3240d869ca2bf74a,OnlineJudgment,2,0,practice,NULL,1,NOW,557,S,False,NOW
1617319007,73cb080831e5619e3240d869ca2bf74a,OnlineJudgment,3,0,practice,NULL,1,XUSIO,581,K,False,XUSIO
1617319007,73cb080831e5619e3240d869ca2bf74a,OnlineJudgment,4,0,practice,NULL,1,EXAM,374,S,False,EXAM
1617319007,73cb080831e5619e3240d869ca2bf74a,OnlineJudgment,21,0,wordsNO,NULL,1,QZXIBAR,535,K,False,QZXIBAR
1617319007,73cb080831e5619e3240d869ca2bf74a,OnlineJudgment,22,0,wordsNO,NULL,1,MISUNDERFLORMENT,977,S,False,MISUNDERFLORMENT
1617319007,73cb080831e5619e3240d869ca2bf74a,OnlineJudgment,14,0,wordsYES,NULL,1,SEE,690,S,False,SEE
1617319007,73cb080831e5619e3240d869ca2bf74a,OnlineJudgment,13,0,wordsYES,NULL,1,GO,708,S,False,GO
1617319007,73cb080831e5619e3240d869ca2bf74a,OnlineJudgment,18,0,wordsNO,NULL,1,EIUOXIE,787,K,False,EIUOXIE
1617319007,73cb080831e5619e3240d869ca2bf74a,OnlineJudgment,12,0,wordsYES,NULL,1,LOOK,504,S,False,LOOK
1617319007,73cb080831e5619e3240d869ca2bf74a,OnlineJudgment,19,0,wordsNO,NULL,1,XXIS,622,K,False,XXIS
1617319007,73cb080831e5619e3240d869ca2bf74a,OnlineJudgment,7,0,wordsYES,NULL,1,TWINE,754,S,False,TWINE
1617319007,73cb080831e5619e3240d869ca2bf74a,OnlineJudgment,10,0,wordsYES,NULL,1,LINGUISTICS,562,S,False,LINGUISTICS
1617319007,73cb080831e5619e3240d869ca2bf74a,OnlineJudgment,16,0,wordsYES,NULL,1,GAUCHO,695,S,False,GAUCHO
1617319007,73cb080831e5619e3240d869ca2bf74a,OnlineJudgment,25,0,wordsNO,NULL,1,SPERSHY,997,K,False,SPERSHY
1617319007,73cb080831e5619e3240d869ca2bf74a,OnlineJudgment,28,0,wordsNO,NULL,1,BRIPPER,947,K,False,BRIPPER
1617319007,73cb080831e5619e3240d869ca2bf74a,OnlineJudgment,11,0,wordsYES,NULL,1,INEBRIATED,942,S,False,INEBRIATED
1617319007,73cb080831e5619e3240d869ca2bf74a,OnlineJudgment,8,0,wordsYES,NULL,1,KHAKI,1005,S,False,KHAKI
1617319007,73cb080831e5619e3240d869ca2bf74a,OnlineJudgment,20,0,wordsNO,NULL,1,FLOPRO,712,K,False,FLOPRO
1617319007,73cb080831e5619e3240d869ca2bf74a,OnlineJudgment,26,0,wordsNO,NULL,1,ALLOP,1078,K,False,ALLOP
1617319007,73cb080831e5619e3240d869ca2bf74a,OnlineJudgment,17,0,wordsNO,NULL,1,ENCYLOPERIO,1009,K,False,ENCYLOPERIO
1617319007,73cb080831e5619e3240d869ca2bf74a,OnlineJudgment,23,0,wordsNO,NULL,1,IMPERSCIDIOUS,1679,S,False,IMPERSCIDIOUS
1617319007,73cb080831e5619e3240d869ca2bf74a,OnlineJudgment,24,0,wordsNO,NULL,1,WORDLOOK,1061,K,False,WORDLOOK
1617319007,73cb080831e5619e3240d869ca2bf74a,OnlineJudgment,27,0,wordsNO,NULL,1,QQZEI,521,K,False,QQZEI
1617319007,73cb080831e5619e3240d869ca2bf74a,OnlineJudgment,9,0,wordsYES,NULL,1,RADIO,967,S,False,RADIO
1617319007,73cb080831e5619e3240d869ca2bf74a,OnlineJudgment,5,0,wordsYES,NULL,1,CAT,562,S,False,CAT
1617319007,73cb080831e5619e3240d869ca2bf74a,OnlineJudgment,6,0,wordsYES,NULL,1,MOTION,509,S,False,MOTION
1617319007,73cb080831e5619e3240d869ca2bf74a,OnlineJudgment,15,0,wordsYES,NULL,1,PHONETICS,540,S,False,PHONETICS
#
# Results on Thursday April 01 2021 23:16:48 UTC.
# USER AGENT: Mozilla/5.0 (Windows NT 10.0; Win64; x64; rv:71.0) Gecko/20100101 Firefox/71.0
# Design number was non-random = 2
#
# Columns below this comment are as follows:
# 1. Time results were received.
# 2. MD5 hash of participant's IP address.
# 3. Controller name.
# 4. Item number.
# 5. Element number.
# 6. Type.
# 7. Group.
# 8. Word number.
# 9. Word.
# 10. Reading time.
# 11. KeyCode.
# 12. Newline?
# 13. Sentence (or sentence MD5).
1617319008,e1ef6cd088c10a705c78edccb62f8111,OnlineJudgment,2,0,practice,NULL,1,NOW,850,S,False,NOW
1617319008,e1ef6cd088c10a705c78edccb62f8111,OnlineJudgment,3,0,practice,NULL,1,XUSIO,1312,K,False,XUSIO
1617319008,e1ef6cd088c10a705c78edccb62f8111,OnlineJudgment,4,0,practice,NULL,1,EXAM,632,S,False,EXAM
1617319008,e1ef6cd088c10a705c78edccb62f8111,OnlineJudgment,5,0,wordsYES,NULL,1,CAT,493,S,False,CAT
1617319008,e1ef6cd088c10a705c78edccb62f8111,OnlineJudgment,13,0,wordsYES,NULL,1,GO,607,S,False,GO
1617319008,e1ef6cd088c10a705c78edccb62f8111,OnlineJudgment,26,0,wordsNO,NULL,1,ALLOP,992,K,False,ALLOP
1617319008,e1ef6cd088c10a705c78edccb62f8111,OnlineJudgment,24,0,wordsNO,NULL,1,WORDLOOK,672,S,False,WORDLOOK
1617319008,e1ef6cd088c10a705c78edccb62f8111,OnlineJudgment,8,0,wordsYES,NULL,1,KHAKI,857,S,False,KHAKI
1617319008,e1ef6cd088c10a705c78edccb62f8111,OnlineJudgment,15,0,wordsYES,NULL,1,PHONETICS,579,S,False,PHONETICS
1617319008,e1ef6cd088c10a705c78edccb62f8111,OnlineJudgment,18,0,wordsNO,NULL,1,EIUOXIE,623,K,False,EIUOXIE
1617319008,e1ef6cd088c10a705c78edccb62f8111,OnlineJudgment,11,0,wordsYES,NULL,1,INEBRIATED,814,S,False,INEBRIATED
1617319008,e1ef6cd088c10a705c78edccb62f8111,OnlineJudgment,12,0,wordsYES,NULL,1,LOOK,556,S,False,LOOK
1617319008,e1ef6cd088c10a705c78edccb62f8111,OnlineJudgment,23,0,wordsNO,NULL,1,IMPERSCIDIOUS,2404,S,False,IMPERSCIDIOUS
1617319008,e1ef6cd088c10a705c78edccb62f8111,OnlineJudgment,17,0,wordsNO,NULL,1,ENCYLOPERIO,1585,S,False,ENCYLOPERIO
1617319008,e1ef6cd088c10a705c78edccb62f8111,OnlineJudgment,20,0,wordsNO,NULL,1,FLOPRO,984,K,False,FLOPRO
1617319008,e1ef6cd088c10a705c78edccb62f8111,OnlineJudgment,6,0,wordsYES,NULL,1,MOTION,910,S,False,MOTION
1617319008,e1ef6cd088c10a705c78edccb62f8111,OnlineJudgment,16,0,wordsYES,NULL,1,GAUCHO,824,S,False,GAUCHO
1617319008,e1ef6cd088c10a705c78edccb62f8111,OnlineJudgment,22,0,wordsNO,NULL,1,MISUNDERFLORMENT,2240,K,False,MISUNDERFLORMENT
1617319008,e1ef6cd088c10a705c78edccb62f8111,OnlineJudgment,9,0,wordsYES,NULL,1,RADIO,1972,S,False,RADIO
1617319008,e1ef6cd088c10a705c78edccb62f8111,OnlineJudgment,25,0,wordsNO,NULL,1,SPERSHY,2019,K,False,SPERSHY
1617319008,e1ef6cd088c10a705c78edccb62f8111,OnlineJudgment,27,0,wordsNO,NULL,1,QQZEI,1225,K,False,QQZEI
1617319008,e1ef6cd088c10a705c78edccb62f8111,OnlineJudgment,10,0,wordsYES,NULL,1,LINGUISTICS,794,S,False,LINGUISTICS
1617319008,e1ef6cd088c10a705c78edccb62f8111,OnlineJudgment,28,0,wordsNO,NULL,1,BRIPPER,825,K,False,BRIPPER
1617319008,e1ef6cd088c10a705c78edccb62f8111,OnlineJudgment,7,0,wordsYES,NULL,1,TWINE,839,S,False,TWINE
1617319008,e1ef6cd088c10a705c78edccb62f8111,OnlineJudgment,19,0,wordsNO,NULL,1,XXIS,570,K,False,XXIS
1617319008,e1ef6cd088c10a705c78edccb62f8111,OnlineJudgment,21,0,wordsNO,NULL,1,QZXIBAR,624,K,False,QZXIBAR
1617319008,e1ef6cd088c10a705c78edccb62f8111,OnlineJudgment,14,0,wordsYES,NULL,1,SEE,558,S,False,SEE
#
# Results on Thursday April 01 2021 23:16:49 UTC.
# USER AGENT: Mozilla/5.0 (Windows NT 10.0; Win64; x64) AppleWebKit/537.36 (KHTML, like Gecko) Chrome/89.0.4389.114 Safari/537.36
# Design number was non-random = 2
#
# Columns below this comment are as follows:
# 1. Time results were received.
# 2. MD5 hash of participant's IP address.
# 3. Controller name.
# 4. Item number.
# 5. Element number.
# 6. Type.
# 7. Group.
# 8. Word number.
# 9. Word.
# 10. Reading time.
# 11. KeyCode.
# 12. Newline?
# 13. Sentence (or sentence MD5).
1617319009,9fe525ed9812b2d7778aee36d9585e2d,OnlineJudgment,2,0,practice,NULL,1,NOW,631,S,False,NOW
1617319009,9fe525ed9812b2d7778aee36d9585e2d,OnlineJudgment,3,0,practice,NULL,1,XUSIO,935,K,False,XUSIO
1617319009,9fe525ed9812b2d7778aee36d9585e2d,OnlineJudgment,4,0,practice,NULL,1,EXAM,456,S,False,EXAM
1617319009,9fe525ed9812b2d7778aee36d9585e2d,OnlineJudgment,20,0,wordsNO,NULL,1,FLOPRO,684,K,False,FLOPRO
1617319009,9fe525ed9812b2d7778aee36d9585e2d,OnlineJudgment,16,0,wordsYES,NULL,1,GAUCHO,826,S,False,GAUCHO
1617319009,9fe525ed9812b2d7778aee36d9585e2d,OnlineJudgment,18,0,wordsNO,NULL,1,EIUOXIE,635,K,False,EIUOXIE
1617319009,9fe525ed9812b2d7778aee36d9585e2d,OnlineJudgment,13,0,wordsYES,NULL,1,GO,471,S,False,GO
1617319009,9fe525ed9812b2d7778aee36d9585e2d,OnlineJudgment,6,0,wordsYES,NULL,1,MOTION,459,K,False,MOTION
1617319009,9fe525ed9812b2d7778aee36d9585e2d,OnlineJudgment,25,0,wordsNO,NULL,1,SPERSHY,638,S,False,SPERSHY
1617319009,9fe525ed9812b2d7778aee36d9585e2d,OnlineJudgment,10,0,wordsYES,NULL,1,LINGUISTICS,589,S,False,LINGUISTICS
1617319009,9fe525ed9812b2d7778aee36d9585e2d,OnlineJudgment,15,0,wordsYES,NULL,1,PHONETICS,395,S,False,PHONETICS
1617319009,9fe525ed9812b2d7778aee36d9585e2d,OnlineJudgment,28,0,wordsNO,NULL,1,BRIPPER,608,S,False,BRIPPER
1617319009,9fe525ed9812b2d7778aee36d9585e2d,OnlineJudgment,5,0,wordsYES,NULL,1,CAT,549,S,False,CAT
1617319009,9fe525ed9812b2d7778aee36d9585e2d,OnlineJudgment,14,0,wordsYES,NULL,1,SEE,568,S,False,SEE
1617319009,9fe525ed9812b2d7778aee36d9585e2d,OnlineJudgment,27,0,wordsNO,NULL,1,QQZEI,495,K,False,QQZEI
1617319009,9fe525ed9812b2d7778aee36d9585e2d,OnlineJudgment,12,0,wordsYES,NULL,1,LOOK,488,S,False,LOOK
1617319009,9fe525ed9812b2d7778aee36d9585e2d,OnlineJudgment,7,0,wordsYES,NULL,1,TWINE,483,S,False,TWINE
1617319009,9fe525ed9812b2d7778aee36d9585e2d,OnlineJudgment,22,0,wordsNO,NULL,1,MISUNDERFLORMENT,1004,S,False,MISUNDERFLORMENT
1617319009,9fe525ed9812b2d7778aee36d9585e2d,OnlineJudgment,8,0,wordsYES,NULL,1,KHAKI,630,S,False,KHAKI
1617319009,9fe525ed9812b2d7778aee36d9585e2d,OnlineJudgment,23,0,wordsNO,NULL,1,IMPERSCIDIOUS,619,S,False,IMPERSCIDIOUS
1617319009,9fe525ed9812b2d7778aee36d9585e2d,OnlineJudgment,19,0,wordsNO,NULL,1,XXIS,638,K,False,XXIS
1617319009,9fe525ed9812b2d7778aee36d9585e2d,OnlineJudgment,26,0,wordsNO,NULL,1,ALLOP,543,S,False,ALLOP
1617319009,9fe525ed9812b2d7778aee36d9585e2d,OnlineJudgment,17,0,wordsNO,NULL,1,ENCYLOPERIO,1569,S,False,ENCYLOPERIO
1617319009,9fe525ed9812b2d7778aee36d9585e2d,OnlineJudgment,11,0,wordsYES,NULL,1,INEBRIATED,492,S,False,INEBRIATED
1617319009,9fe525ed9812b2d7778aee36d9585e2d,OnlineJudgment,9,0,wordsYES,NULL,1,RADIO,371,S,False,RADIO
1617319009,9fe525ed9812b2d7778aee36d9585e2d,OnlineJudgment,24,0,wordsNO,NULL,1,WORDLOOK,458,S,False,WORDLOOK
1617319009,9fe525ed9812b2d7778aee36d9585e2d,OnlineJudgment,21,0,wordsNO,NULL,1,QZXIBAR,421,S,False,QZXIBAR
#
# Results on Thursday April 01 2021 23:16:54 UTC.
# USER AGENT: Mozilla/5.0 (Windows NT 10.0; Win64; x64) AppleWebKit/537.36 (KHTML, like Gecko) Chrome/89.0.4389.90 Safari/537.36
# Design number was non-random = 2
#
# Columns below this comment are as follows:
# 1. Time results were received.
# 2. MD5 hash of participant's IP address.
# 3. Controller name.
# 4. Item number.
# 5. Element number.
# 6. Type.
# 7. Group.
# 8. Word number.
# 9. Word.
# 10. Reading time.
# 11. KeyCode.
# 12. Newline?
# 13. Sentence (or sentence MD5).
1617319014,d000d080c1691c205639ffa97dbb20dd,OnlineJudgment,2,0,practice,NULL,1,NOW,894,S,False,NOW
1617319014,d000d080c1691c205639ffa97dbb20dd,OnlineJudgment,3,0,practice,NULL,1,XUSIO,837,K,False,XUSIO
1617319014,d000d080c1691c205639ffa97dbb20dd,OnlineJudgment,4,0,practice,NULL,1,EXAM,380,S,False,EXAM
1617319014,d000d080c1691c205639ffa97dbb20dd,OnlineJudgment,6,0,wordsYES,NULL,1,MOTION,634,S,False,MOTION
1617319014,d000d080c1691c205639ffa97dbb20dd,OnlineJudgment,14,0,wordsYES,NULL,1,SEE,558,S,False,SEE
1617319014,d000d080c1691c205639ffa97dbb20dd,OnlineJudgment,19,0,wordsNO,NULL,1,XXIS,619,K,False,XXIS
1617319014,d000d080c1691c205639ffa97dbb20dd,OnlineJudgment,12,0,wordsYES,NULL,1,LOOK,538,S,False,LOOK
1617319014,d000d080c1691c205639ffa97dbb20dd,OnlineJudgment,23,0,wordsNO,NULL,1,IMPERSCIDIOUS,1047,K,False,IMPERSCIDIOUS
1617319014,d000d080c1691c205639ffa97dbb20dd,OnlineJudgment,26,0,wordsNO,NULL,1,ALLOP,919,K,False,ALLOP
1617319014,d000d080c1691c205639ffa97dbb20dd,OnlineJudgment,13,0,wordsYES,NULL,1,GO,527,S,False,GO
1617319014,d000d080c1691c205639ffa97dbb20dd,OnlineJudgment,11,0,wordsYES,NULL,1,INEBRIATED,1160,S,False,INEBRIATED
1617319014,d000d080c1691c205639ffa97dbb20dd,OnlineJudgment,10,0,wordsYES,NULL,1,LINGUISTICS,709,S,False,LINGUISTICS
1617319014,d000d080c1691c205639ffa97dbb20dd,OnlineJudgment,15,0,wordsYES,NULL,1,PHONETICS,737,S,False,PHONETICS
1617319014,d000d080c1691c205639ffa97dbb20dd,OnlineJudgment,17,0,wordsNO,NULL,1,ENCYLOPERIO,1356,K,False,ENCYLOPERIO
1617319014,d000d080c1691c205639ffa97dbb20dd,OnlineJudgment,22,0,wordsNO,NULL,1,MISUNDERFLORMENT,1790,K,False,MISUNDERFLORMENT
1617319014,d000d080c1691c205639ffa97dbb20dd,OnlineJudgment,7,0,wordsYES,NULL,1,TWINE,1166,S,False,TWINE
1617319014,d000d080c1691c205639ffa97dbb20dd,OnlineJudgment,25,0,wordsNO,NULL,1,SPERSHY,888,K,False,SPERSHY
1617319014,d000d080c1691c205639ffa97dbb20dd,OnlineJudgment,8,0,wordsYES,NULL,1,KHAKI,933,S,False,KHAKI
1617319014,d000d080c1691c205639ffa97dbb20dd,OnlineJudgment,24,0,wordsNO,NULL,1,WORDLOOK,1064,S,False,WORDLOOK
1617319014,d000d080c1691c205639ffa97dbb20dd,OnlineJudgment,28,0,wordsNO,NULL,1,BRIPPER,1000,K,False,BRIPPER
1617319014,d000d080c1691c205639ffa97dbb20dd,OnlineJudgment,5,0,wordsYES,NULL,1,CAT,599,S,False,CAT
1617319014,d000d080c1691c205639ffa97dbb20dd,OnlineJudgment,16,0,wordsYES,NULL,1,GAUCHO,675,S,False,GAUCHO
1617319014,d000d080c1691c205639ffa97dbb20dd,OnlineJudgment,27,0,wordsNO,NULL,1,QQZEI,734,K,False,QQZEI
1617319014,d000d080c1691c205639ffa97dbb20dd,OnlineJudgment,20,0,wordsNO,NULL,1,FLOPRO,1270,K,False,FLOPRO
1617319014,d000d080c1691c205639ffa97dbb20dd,OnlineJudgment,21,0,wordsNO,NULL,1,QZXIBAR,1645,K,False,QZXIBAR
1617319014,d000d080c1691c205639ffa97dbb20dd,OnlineJudgment,18,0,wordsNO,NULL,1,EIUOXIE,1130,S,False,EIUOXIE
1617319014,d000d080c1691c205639ffa97dbb20dd,OnlineJudgment,9,0,wordsYES,NULL,1,RADIO,571,S,False,RADIO
#
# Results on Thursday April 01 2021 23:16:56 UTC.
# USER AGENT: Mozilla/5.0 (Macintosh; Intel Mac OS X 10_15_7) AppleWebKit/537.36 (KHTML, like Gecko) Chrome/89.0.4389.82 Safari/537.36
# Design number was non-random = 2
#
# Columns below this comment are as follows:
# 1. Time results were received.
# 2. MD5 hash of participant's IP address.
# 3. Controller name.
# 4. Item number.
# 5. Element number.
# 6. Type.
# 7. Group.
# 8. Word number.
# 9. Word.
# 10. Reading time.
# 11. KeyCode.
# 12. Newline?
# 13. Sentence (or sentence MD5).
1617319016,e8240850cbd58506cfa6a481217ab205,OnlineJudgment,2,0,practice,NULL,1,NOW,922,S,False,NOW
1617319016,e8240850cbd58506cfa6a481217ab205,OnlineJudgment,3,0,practice,NULL,1,XUSIO,494,K,False,XUSIO
1617319016,e8240850cbd58506cfa6a481217ab205,OnlineJudgment,4,0,practice,NULL,1,EXAM,428,S,False,EXAM
1617319016,e8240850cbd58506cfa6a481217ab205,OnlineJudgment,8,0,wordsYES,NULL,1,KHAKI,956,S,False,KHAKI
1617319016,e8240850cbd58506cfa6a481217ab205,OnlineJudgment,25,0,wordsNO,NULL,1,SPERSHY,630,K,False,SPERSHY
1617319016,e8240850cbd58506cfa6a481217ab205,OnlineJudgment,22,0,wordsNO,NULL,1,MISUNDERFLORMENT,858,K,False,MISUNDERFLORMENT
1617319016,e8240850cbd58506cfa6a481217ab205,OnlineJudgment,14,0,wordsYES,NULL,1,SEE,516,S,False,SEE
1617319016,e8240850cbd58506cfa6a481217ab205,OnlineJudgment,12,0,wordsYES,NULL,1,LOOK,670,S,False,LOOK
1617319016,e8240850cbd58506cfa6a481217ab205,OnlineJudgment,16,0,wordsYES,NULL,1,GAUCHO,853,S,False,GAUCHO
1617319016,e8240850cbd58506cfa6a481217ab205,OnlineJudgment,15,0,wordsYES,NULL,1,PHONETICS,550,S,False,PHONETICS
1617319016,e8240850cbd58506cfa6a481217ab205,OnlineJudgment,11,0,wordsYES,NULL,1,INEBRIATED,788,S,False,INEBRIATED
1617319016,e8240850cbd58506cfa6a481217ab205,OnlineJudgment,13,0,wordsYES,NULL,1,GO,556,S,False,GO
1617319016,e8240850cbd58506cfa6a481217ab205,OnlineJudgment,27,0,wordsNO,NULL,1,QQZEI,568,K,False,QQZEI
1617319016,e8240850cbd58506cfa6a481217ab205,OnlineJudgment,20,0,wordsNO,NULL,1,FLOPRO,1182,K,False,FLOPRO
1617319016,e8240850cbd58506cfa6a481217ab205,OnlineJudgment,28,0,wordsNO,NULL,1,BRIPPER,1099,K,False,BRIPPER
1617319016,e8240850cbd58506cfa6a481217ab205,OnlineJudgment,5,0,wordsYES,NULL,1,CAT,586,S,False,CAT
1617319016,e8240850cbd58506cfa6a481217ab205,OnlineJudgment,9,0,wordsYES,NULL,1,RADIO,442,S,False,RADIO
1617319016,e8240850cbd58506cfa6a481217ab205,OnlineJudgment,21,0,wordsNO,NULL,1,QZXIBAR,588,K,False,QZXIBAR
1617319016,e8240850cbd58506cfa6a481217ab205,OnlineJudgment,17,0,wordsNO,NULL,1,ENCYLOPERIO,1755,K,False,ENCYLOPERIO
1617319016,e8240850cbd58506cfa6a481217ab205,OnlineJudgment,19,0,wordsNO,NULL,1,XXIS,665,K,False,XXIS
1617319016,e8240850cbd58506cfa6a481217ab205,OnlineJudgment,23,0,wordsNO,NULL,1,IMPERSCIDIOUS,593,S,False,IMPERSCIDIOUS
1617319016,e8240850cbd58506cfa6a481217ab205,OnlineJudgment,6,0,wordsYES,NULL,1,MOTION,1396,S,False,MOTION
1617319016,e8240850cbd58506cfa6a481217ab205,OnlineJudgment,10,0,wordsYES,NULL,1,LINGUISTICS,1024,S,False,LINGUISTICS
1617319016,e8240850cbd58506cfa6a481217ab205,OnlineJudgment,24,0,wordsNO,NULL,1,WORDLOOK,841,K,False,WORDLOOK
1617319016,e8240850cbd58506cfa6a481217ab205,OnlineJudgment,26,0,wordsNO,NULL,1,ALLOP,661,K,False,ALLOP
1617319016,e8240850cbd58506cfa6a481217ab205,OnlineJudgment,18,0,wordsNO,NULL,1,EIUOXIE,604,K,False,EIUOXIE
1617319016,e8240850cbd58506cfa6a481217ab205,OnlineJudgment,7,0,wordsYES,NULL,1,TWINE,928,S,False,TWINE
#
# Results on Thursday April 01 2021 23:16:57 UTC.
# USER AGENT: Mozilla/5.0 (Windows NT 10.0; Win64; x64) AppleWebKit/537.36 (KHTML, like Gecko) Chrome/89.0.4389.114 Safari/537.36
# Design number was non-random = 2
#
# Columns below this comment are as follows:
# 1. Time results were received.
# 2. MD5 hash of participant's IP address.
# 3. Controller name.
# 4. Item number.
# 5. Element number.
# 6. Type.
# 7. Group.
# 8. Word number.
# 9. Word.
# 10. Reading time.
# 11. KeyCode.
# 12. Newline?
# 13. Sentence (or sentence MD5).
1617319018,d65070a39d13a8c7d0d9992ab74f220a,OnlineJudgment,2,0,practice,NULL,1,NOW,5622,S,False,NOW
1617319018,d65070a39d13a8c7d0d9992ab74f220a,OnlineJudgment,3,0,practice,NULL,1,XUSIO,794,K,False,XUSIO
1617319018,d65070a39d13a8c7d0d9992ab74f220a,OnlineJudgment,4,0,practice,NULL,1,EXAM,827,S,False,EXAM
1617319018,d65070a39d13a8c7d0d9992ab74f220a,OnlineJudgment,8,0,wordsYES,NULL,1,KHAKI,954,S,False,KHAKI
1617319018,d65070a39d13a8c7d0d9992ab74f220a,OnlineJudgment,13,0,wordsYES,NULL,1,GO,1713,S,False,GO
1617319018,d65070a39d13a8c7d0d9992ab74f220a,OnlineJudgment,9,0,wordsYES,NULL,1,RADIO,808,S,False,RADIO
1617319018,d65070a39d13a8c7d0d9992ab74f220a,OnlineJudgment,19,0,wordsNO,NULL,1,XXIS,816,K,False,XXIS
1617319018,d65070a39d13a8c7d0d9992ab74f220a,OnlineJudgment,28,0,wordsNO,NULL,1,BRIPPER,1161,K,False,BRIPPER
1617319018,d65070a39d13a8c7d0d9992ab74f220a,OnlineJudgment,24,0,wordsNO,NULL,1,WORDLOOK,1936,K,False,WORDLOOK
1617319018,d65070a39d13a8c7d0d9992ab74f220a,OnlineJudgment,22,0,wordsNO,NULL,1,MISUNDERFLORMENT,83,K,False,MISUNDERFLORMENT
1617319018,d65070a39d13a8c7d0d9992ab74f220a,OnlineJudgment,14,0,wordsYES,NULL,1,SEE,167,K,False,SEE
1617319018,d65070a39d13a8c7d0d9992ab74f220a,OnlineJudgment,16,0,wordsYES,NULL,1,GAUCHO,2539,S,False,GAUCHO
1617319018,d65070a39d13a8c7d0d9992ab74f220a,OnlineJudgment,18,0,wordsNO,NULL,1,EIUOXIE,912,K,False,EIUOXIE
1617319018,d65070a39d13a8c7d0d9992ab74f220a,OnlineJudgment,12,0,wordsYES,NULL,1,LOOK,1493,S,False,LOOK
1617319018,d65070a39d13a8c7d0d9992ab74f220a,OnlineJudgment,15,0,wordsYES,NULL,1,PHONETICS,897,S,False,PHONETICS
1617319018,d65070a39d13a8c7d0d9992ab74f220a,OnlineJudgment,26,0,wordsNO,NULL,1,ALLOP,889,K,False,ALLOP
1617319018,d65070a39d13a8c7d0d9992ab74f220a,OnlineJudgment,10,0,wordsYES,NULL,1,LINGUISTICS,759,S,False,LINGUISTICS
1617319018,d65070a39d13a8c7d0d9992ab74f220a,OnlineJudgment,6,0,wordsYES,NULL,1,MOTION,722,S,False,MOTION
1617319018,d65070a39d13a8c7d0d9992ab74f220a,OnlineJudgment,21,0,wordsNO,NULL,1,QZXIBAR,740,K,False,QZXIBAR
1617319018,d65070a39d13a8c7d0d9992ab74f220a,OnlineJudgment,23,0,wordsNO,NULL,1,IMPERSCIDIOUS,1433,K,False,IMPERSCIDIOUS
1617319018,d65070a39d13a8c7d0d9992ab74f220a,OnlineJudgment,7,0,wordsYES,NULL,1,TWINE,786,S,False,TWINE
1617319018,d65070a39d13a8c7d0d9992ab74f220a,OnlineJudgment,5,0,wordsYES,NULL,1,CAT,713,S,False,CAT
1617319018,d65070a39d13a8c7d0d9992ab74f220a,OnlineJudgment,27,0,wordsNO,NULL,1,QQZEI,888,K,False,QQZEI
1617319018,d65070a39d13a8c7d0d9992ab74f220a,OnlineJudgment,20,0,wordsNO,NULL,1,FLOPRO,986,K,False,FLOPRO
1617319018,d65070a39d13a8c7d0d9992ab74f220a,OnlineJudgment,25,0,wordsNO,NULL,1,SPERSHY,1346,K,False,SPERSHY
1617319018,d65070a39d13a8c7d0d9992ab74f220a,OnlineJudgment,11,0,wordsYES,NULL,1,INEBRIATED,1498,S,False,INEBRIATED
1617319018,d65070a39d13a8c7d0d9992ab74f220a,OnlineJudgment,17,0,wordsNO,NULL,1,ENCYLOPERIO,1289,K,False,ENCYLOPERIO
#
# Results on Thursday April 01 2021 23:17:03 UTC.
# USER AGENT: Mozilla/5.0 (Macintosh; Intel Mac OS X 10_15_7) AppleWebKit/537.36 (KHTML, like Gecko) Chrome/89.0.4389.90 Safari/537.36
# Design number was non-random = 2
#
# Columns below this comment are as follows:
# 1. Time results were received.
# 2. MD5 hash of participant's IP address.
# 3. Controller name.
# 4. Item number.
# 5. Element number.
# 6. Type.
# 7. Group.
# 8. Word number.
# 9. Word.
# 10. Reading time.
# 11. KeyCode.
# 12. Newline?
# 13. Sentence (or sentence MD5).
1617319024,d53dd0c740e84a2ebbc201c408dc21e8,OnlineJudgment,2,0,practice,NULL,1,NOW,2604,S,False,NOW
1617319024,d53dd0c740e84a2ebbc201c408dc21e8,OnlineJudgment,3,0,practice,NULL,1,XUSIO,2474,K,False,XUSIO
1617319024,d53dd0c740e84a2ebbc201c408dc21e8,OnlineJudgment,4,0,practice,NULL,1,EXAM,907,S,False,EXAM
1617319024,d53dd0c740e84a2ebbc201c408dc21e8,OnlineJudgment,21,0,wordsNO,NULL,1,QZXIBAR,1293,K,False,QZXIBAR
1617319024,d53dd0c740e84a2ebbc201c408dc21e8,OnlineJudgment,18,0,wordsNO,NULL,1,EIUOXIE,1583,K,False,EIUOXIE
1617319024,d53dd0c740e84a2ebbc201c408dc21e8,OnlineJudgment,28,0,wordsNO,NULL,1,BRIPPER,1444,K,False,BRIPPER
1617319024,d53dd0c740e84a2ebbc201c408dc21e8,OnlineJudgment,16,0,wordsYES,NULL,1,GAUCHO,1017,S,False,GAUCHO
1617319024,d53dd0c740e84a2ebbc201c408dc21e8,OnlineJudgment,22,0,wordsNO,NULL,1,MISUNDERFLORMENT,1288,K,False,MISUNDERFLORMENT
1617319024,d53dd0c740e84a2ebbc201c408dc21e8,OnlineJudgment,24,0,wordsNO,NULL,1,WORDLOOK,1519,K,False,WORDLOOK
1617319024,d53dd0c740e84a2ebbc201c408dc21e8,OnlineJudgment,19,0,wordsNO,NULL,1,XXIS,848,K,False,XXIS
1617319024,d53dd0c740e84a2ebbc201c408dc21e8,OnlineJudgment,6,0,wordsYES,NULL,1,MOTION,1267,S,False,MOTION
1617319024,d53dd0c740e84a2ebbc201c408dc21e8,OnlineJudgment,23,0,wordsNO,NULL,1,IMPERSCIDIOUS,1335,K,False,IMPERSCIDIOUS
1617319024,d53dd0c740e84a2ebbc201c408dc21e8,OnlineJudgment,13,0,wordsYES,NULL,1,GO,785,S,False,GO
1617319024,d53dd0c740e84a2ebbc201c408dc21e8,OnlineJudgment,5,0,wordsYES,NULL,1,CAT,724,S,False,CAT
1617319024,d53dd0c740e84a2ebbc201c408dc21e8,OnlineJudgment,7,0,wordsYES,NULL,1,TWINE,981,S,False,TWINE
1617319024,d53dd0c740e84a2ebbc201c408dc21e8,OnlineJudgment,12,0,wordsYES,NULL,1,LOOK,470,S,False,LOOK
1617319024,d53dd0c740e84a2ebbc201c408dc21e8,OnlineJudgment,10,0,wordsYES,NULL,1,LINGUISTICS,469,S,False,LINGUISTICS
1617319024,d53dd0c740e84a2ebbc201c408dc21e8,OnlineJudgment,11,0,wordsYES,NULL,1,INEBRIATED,630,S,False,INEBRIATED
1617319024,d53dd0c740e84a2ebbc201c408dc21e8,OnlineJudgment,17,0,wordsNO,NULL,1,ENCYLOPERIO,862,K,False,ENCYLOPERIO
1617319024,d53dd0c740e84a2ebbc201c408dc21e8,OnlineJudgment,9,0,wordsYES,NULL,1,RADIO,687,S,False,RADIO
1617319024,d53dd0c740e84a2ebbc201c408dc21e8,OnlineJudgment,25,0,wordsNO,NULL,1,SPERSHY,688,K,False,SPERSHY
1617319024,d53dd0c740e84a2ebbc201c408dc21e8,OnlineJudgment,27,0,wordsNO,NULL,1,QQZEI,1166,K,False,QQZEI
1617319024,d53dd0c740e84a2ebbc201c408dc21e8,OnlineJudgment,8,0,wordsYES,NULL,1,KHAKI,673,S,False,KHAKI
1617319024,d53dd0c740e84a2ebbc201c408dc21e8,OnlineJudgment,15,0,wordsYES,NULL,1,PHONETICS,647,S,False,PHONETICS
1617319024,d53dd0c740e84a2ebbc201c408dc21e8,OnlineJudgment,26,0,wordsNO,NULL,1,ALLOP,784,K,False,ALLOP
1617319024,d53dd0c740e84a2ebbc201c408dc21e8,OnlineJudgment,14,0,wordsYES,NULL,1,SEE,632,S,False,SEE
1617319024,d53dd0c740e84a2ebbc201c408dc21e8,OnlineJudgment,20,0,wordsNO,NULL,1,FLOPRO,686,K,False,FLOPRO
#
# Results on Thursday April 01 2021 23:17:03 UTC.
# USER AGENT: Mozilla/5.0 (Windows NT 10.0; Win64; x64) AppleWebKit/537.36 (KHTML, like Gecko) Chrome/89.0.4389.90 Safari/537.36
# Design number was non-random = 2
#
# Columns below this comment are as follows:
# 1. Time results were received.
# 2. MD5 hash of participant's IP address.
# 3. Controller name.
# 4. Item number.
# 5. Element number.
# 6. Type.
# 7. Group.
# 8. Word number.
# 9. Word.
# 10. Reading time.
# 11. KeyCode.
# 12. Newline?
# 13. Sentence (or sentence MD5).
1617319024,bfa9e4e497bbfb49eed730c0e18608fb,OnlineJudgment,2,0,practice,NULL,1,NOW,803,S,False,NOW
1617319024,bfa9e4e497bbfb49eed730c0e18608fb,OnlineJudgment,3,0,practice,NULL,1,XUSIO,939,K,False,XUSIO
1617319024,bfa9e4e497bbfb49eed730c0e18608fb,OnlineJudgment,4,0,practice,NULL,1,EXAM,1598,S,False,EXAM
1617319024,bfa9e4e497bbfb49eed730c0e18608fb,OnlineJudgment,16,0,wordsYES,NULL,1,GAUCHO,878,S,False,GAUCHO
1617319024,bfa9e4e497bbfb49eed730c0e18608fb,OnlineJudgment,8,0,wordsYES,NULL,1,KHAKI,946,S,False,KHAKI
1617319024,bfa9e4e497bbfb49eed730c0e18608fb,OnlineJudgment,19,0,wordsNO,NULL,1,XXIS,809,K,False,XXIS
1617319024,bfa9e4e497bbfb49eed730c0e18608fb,OnlineJudgment,9,0,wordsYES,NULL,1,RADIO,892,S,False,RADIO
1617319024,bfa9e4e497bbfb49eed730c0e18608fb,OnlineJudgment,18,0,wordsNO,NULL,1,EIUOXIE,916,K,False,EIUOXIE
1617319024,bfa9e4e497bbfb49eed730c0e18608fb,OnlineJudgment,23,0,wordsNO,NULL,1,IMPERSCIDIOUS,2578,K,False,IMPERSCIDIOUS
1617319024,bfa9e4e497bbfb49eed730c0e18608fb,OnlineJudgment,22,0,wordsNO,NULL,1,MISUNDERFLORMENT,1205,K,False,MISUNDERFLORMENT
1617319024,bfa9e4e497bbfb49eed730c0e18608fb,OnlineJudgment,28,0,wordsNO,NULL,1,BRIPPER,1075,K,False,BRIPPER
1617319024,bfa9e4e497bbfb49eed730c0e18608fb,OnlineJudgment,27,0,wordsNO,NULL,1,QQZEI,1249,K,False,QQZEI
1617319024,bfa9e4e497bbfb49eed730c0e18608fb,OnlineJudgment,12,0,wordsYES,NULL,1,LOOK,1133,S,False,LOOK
1617319024,bfa9e4e497bbfb49eed730c0e18608fb,OnlineJudgment,17,0,wordsNO,NULL,1,ENCYLOPERIO,910,K,False,ENCYLOPERIO
1617319024,bfa9e4e497bbfb49eed730c0e18608fb,OnlineJudgment,7,0,wordsYES,NULL,1,TWINE,781,S,False,TWINE
1617319024,bfa9e4e497bbfb49eed730c0e18608fb,OnlineJudgment,5,0,wordsYES,NULL,1,CAT,612,S,False,CAT
1617319024,bfa9e4e497bbfb49eed730c0e18608fb,OnlineJudgment,10,0,wordsYES,NULL,1,LINGUISTICS,985,S,False,LINGUISTICS
1617319024,bfa9e4e497bbfb49eed730c0e18608fb,OnlineJudgment,25,0,wordsNO,NULL,1,SPERSHY,791,K,False,SPERSHY
1617319024,bfa9e4e497bbfb49eed730c0e18608fb,OnlineJudgment,21,0,wordsNO,NULL,1,QZXIBAR,1714,K,False,QZXIBAR
1617319024,bfa9e4e497bbfb49eed730c0e18608fb,OnlineJudgment,26,0,wordsNO,NULL,1,ALLOP,966,K,False,ALLOP
1617319024,bfa9e4e497bbfb49eed730c0e18608fb,OnlineJudgment,15,0,wordsYES,NULL,1,PHONETICS,745,S,False,PHONETICS
1617319024,bfa9e4e497bbfb49eed730c0e18608fb,OnlineJudgment,6,0,wordsYES,NULL,1,MOTION,1179,S,False,MOTION
1617319024,bfa9e4e497bbfb49eed730c0e18608fb,OnlineJudgment,11,0,wordsYES,NULL,1,INEBRIATED,1336,S,False,INEBRIATED
1617319024,bfa9e4e497bbfb49eed730c0e18608fb,OnlineJudgment,20,0,wordsNO,NULL,1,FLOPRO,1179,K,False,FLOPRO
1617319024,bfa9e4e497bbfb49eed730c0e18608fb,OnlineJudgment,14,0,wordsYES,NULL,1,SEE,626,S,False,SEE
1617319024,bfa9e4e497bbfb49eed730c0e18608fb,OnlineJudgment,24,0,wordsNO,NULL,1,WORDLOOK,1285,K,False,WORDLOOK
1617319024,bfa9e4e497bbfb49eed730c0e18608fb,OnlineJudgment,13,0,wordsYES,NULL,1,GO,964,S,False,GO
#
# Results on Thursday April 01 2021 23:17:22 UTC.
# USER AGENT: Mozilla/5.0 (Macintosh; Intel Mac OS X 10_15_7) AppleWebKit/537.36 (KHTML, like Gecko) Chrome/88.0.4324.150 Safari/537.36
# Design number was non-random = 2
#
# Columns below this comment are as follows:
# 1. Time results were received.
# 2. MD5 hash of participant's IP address.
# 3. Controller name.
# 4. Item number.
# 5. Element number.
# 6. Type.
# 7. Group.
# 8. Word number.
# 9. Word.
# 10. Reading time.
# 11. KeyCode.
# 12. Newline?
# 13. Sentence (or sentence MD5).
1617319043,6159b0e45bc51bf7765e980c787352eb,OnlineJudgment,2,0,practice,NULL,1,NOW,1716,S,False,NOW
1617319043,6159b0e45bc51bf7765e980c787352eb,OnlineJudgment,3,0,practice,NULL,1,XUSIO,1189,K,False,XUSIO
1617319043,6159b0e45bc51bf7765e980c787352eb,OnlineJudgment,4,0,practice,NULL,1,EXAM,1000,S,False,EXAM
1617319043,6159b0e45bc51bf7765e980c787352eb,OnlineJudgment,17,0,wordsNO,NULL,1,ENCYLOPERIO,4224,K,False,ENCYLOPERIO
1617319043,6159b0e45bc51bf7765e980c787352eb,OnlineJudgment,5,0,wordsYES,NULL,1,CAT,964,S,False,CAT
1617319043,6159b0e45bc51bf7765e980c787352eb,OnlineJudgment,27,0,wordsNO,NULL,1,QQZEI,1341,K,False,QQZEI
1617319043,6159b0e45bc51bf7765e980c787352eb,OnlineJudgment,26,0,wordsNO,NULL,1,ALLOP,1600,K,False,ALLOP
1617319043,6159b0e45bc51bf7765e980c787352eb,OnlineJudgment,10,0,wordsYES,NULL,1,LINGUISTICS,2297,S,False,LINGUISTICS
1617319043,6159b0e45bc51bf7765e980c787352eb,OnlineJudgment,16,0,wordsYES,NULL,1,GAUCHO,1829,S,False,GAUCHO
1617319043,6159b0e45bc51bf7765e980c787352eb,OnlineJudgment,14,0,wordsYES,NULL,1,SEE,892,S,False,SEE
1617319043,6159b0e45bc51bf7765e980c787352eb,OnlineJudgment,20,0,wordsNO,NULL,1,FLOPRO,1510,K,False,FLOPRO
1617319043,6159b0e45bc51bf7765e980c787352eb,OnlineJudgment,24,0,wordsNO,NULL,1,WORDLOOK,3117,S,False,WORDLOOK
1617319043,6159b0e45bc51bf7765e980c787352eb,OnlineJudgment,21,0,wordsNO,NULL,1,QZXIBAR,968,K,False,QZXIBAR
1617319043,6159b0e45bc51bf7765e980c787352eb,OnlineJudgment,13,0,wordsYES,NULL,1,GO,967,S,False,GO
1617319043,6159b0e45bc51bf7765e980c787352eb,OnlineJudgment,22,0,wordsNO,NULL,1,MISUNDERFLORMENT,5069,K,False,MISUNDERFLORMENT
1617319043,6159b0e45bc51bf7765e980c787352eb,OnlineJudgment,25,0,wordsNO,NULL,1,SPERSHY,2135,K,False,SPERSHY
1617319043,6159b0e45bc51bf7765e980c787352eb,OnlineJudgment,6,0,wordsYES,NULL,1,MOTION,1392,S,False,MOTION
1617319043,6159b0e45bc51bf7765e980c787352eb,OnlineJudgment,7,0,wordsYES,NULL,1,TWINE,2758,K,False,TWINE
1617319043,6159b0e45bc51bf7765e980c787352eb,OnlineJudgment,12,0,wordsYES,NULL,1,LOOK,747,S,False,LOOK
1617319043,6159b0e45bc51bf7765e980c787352eb,OnlineJudgment,15,0,wordsYES,NULL,1,PHONETICS,1930,S,False,PHONETICS
1617319043,6159b0e45bc51bf7765e980c787352eb,OnlineJudgment,23,0,wordsNO,NULL,1,IMPERSCIDIOUS,4291,S,False,IMPERSCIDIOUS
1617319043,6159b0e45bc51bf7765e980c787352eb,OnlineJudgment,18,0,wordsNO,NULL,1,EIUOXIE,1560,K,False,EIUOXIE
1617319043,6159b0e45bc51bf7765e980c787352eb,OnlineJudgment,8,0,wordsYES,NULL,1,KHAKI,1220,S,False,KHAKI
1617319043,6159b0e45bc51bf7765e980c787352eb,OnlineJudgment,28,0,wordsNO,NULL,1,BRIPPER,3132,K,False,BRIPPER
1617319043,6159b0e45bc51bf7765e980c787352eb,OnlineJudgment,19,0,wordsNO,NULL,1,XXIS,995,K,False,XXIS
1617319043,6159b0e45bc51bf7765e980c787352eb,OnlineJudgment,9,0,wordsYES,NULL,1,RADIO,1121,S,False,RADIO
1617319043,6159b0e45bc51bf7765e980c787352eb,OnlineJudgment,11,0,wordsYES,NULL,1,INEBRIATED,5740,K,False,INEBRIATED
